Temperature (K)	Pressure (MPa)	Density (l, mol/l)	Volume (l, l/mol)	Internal Energy (l, kJ/mol)	Enthalpy (l, kJ/mol)	Entropy (l, J/mol*K)	Cv (l, J/mol*K)	Cp (l, J/mol*K)	Sound Spd. (l, m/s)	Joule-Thomson (l, K/MPa)	Viscosity (l, uPa*s)	Therm. Cond. (l, W/m*K)	Surf. Tension (l, N/m)	Density (v, mol/l)	Volume (v, l/mol)	Internal Energy (v, kJ/mol)	Enthalpy (v, kJ/mol)	Entropy (v, J/mol*K)	Cv (v, J/mol*K)	Cp (v, J/mol*K)	Sound Spd. (v, m/s)	Joule-Thomson (v, K/MPa)	Viscosity (v, uPa*s)	Therm. Cond. (v, W/m*K)
272.31	0.10000	10.351	0.096608	11.502	11.512	57.711	95.158	134.15	1039.7	-0.36868	204.22	0.11568	0.014926	0.046045	21.718	31.776	33.948	140.10	85.131	95.267	200.07	34.694	6.7480	0.014113
291.99	0.20000	9.9774	0.10023	14.191	14.211	67.245	98.891	139.88	933.81	-0.30245	168.02	0.10723	0.012546	0.088220	11.335	33.313	35.580	140.43	90.721	102.17	202.00	28.825	7.2325	0.015972
305.06	0.30000	9.7159	0.10292	16.040	16.071	73.440	101.56	144.20	863.76	-0.24797	148.37	0.10190	0.011015	0.12964	7.7139	34.348	36.662	140.94	94.630	107.33	202.04	25.924	7.5684	0.017318
315.14	0.40000	9.5050	0.10521	17.504	17.546	78.165	103.71	147.87	809.70	-0.19811	135.04	0.097949	0.0098621	0.17092	5.8507	35.153	37.493	141.46	97.744	111.69	201.30	24.111	7.8411	0.018433
323.48	0.50000	9.3238	0.10725	18.741	18.795	82.041	105.55	151.16	764.92	-0.15020	125.00	0.094802	0.0089300	0.21237	4.7088	35.819	38.173	141.95	100.38	115.61	200.14	22.852	8.0792	0.019417
330.64	0.60000	9.1620	0.10915	19.825	19.891	85.360	107.16	154.22	726.24	-0.10286	116.98	0.092181	0.0081440	0.25417	3.9344	36.391	38.752	142.40	102.69	119.25	198.70	21.923	8.2961	0.020316
336.97	0.70000	9.0141	0.11094	20.799	20.877	88.281	108.62	157.13	691.91	-0.055233	110.30	0.089933	0.0074629	0.29645	3.3732	36.895	39.257	142.82	104.77	122.72	197.07	21.212	8.4991	0.021156
342.66	0.80000	8.8765	0.11266	21.689	21.779	90.903	109.96	159.93	660.84	-0.0066641	104.58	0.087964	0.0068613	0.33934	2.9469	37.346	39.704	143.21	106.65	126.07	195.30	20.658	8.6926	0.021956
347.84	0.90000	8.7468	0.11433	22.512	22.615	93.291	111.21	162.68	632.30	0.043364	99.583	0.086214	0.0063223	0.38292	2.6115	37.755	40.105	143.57	108.38	129.36	193.41	20.223	8.8798	0.022725
352.62	1.0000	8.6234	0.11596	23.281	23.397	95.491	112.37	165.40	605.80	0.095319	95.139	0.084637	0.0058341	0.42728	2.3404	38.127	40.468	143.90	109.97	132.62	191.42	19.881	9.0627	0.023473
357.05	1.1000	8.5050	0.11758	24.005	24.135	97.537	113.48	168.13	580.95	0.14965	91.135	0.083204	0.0053881	0.47252	2.1163	38.470	40.798	144.21	111.46	135.91	189.35	19.616	9.2431	0.024206
361.20	1.2000	8.3905	0.11918	24.691	24.834	99.452	114.53	170.88	557.49	0.20681	87.489	0.081889	0.0049779	0.51871	1.9279	38.787	41.100	144.48	112.87	139.25	187.21	19.414	9.4222	0.024928
365.10	1.3000	8.2793	0.12078	25.345	25.502	101.26	115.54	173.68	535.18	0.26727	84.136	0.080676	0.0045985	0.56596	1.7669	39.080	41.377	144.74	114.20	142.69	185.01	19.264	9.6010	0.025645
368.78	1.4000	8.1707	0.12239	25.970	26.141	102.97	116.52	176.55	513.87	0.33156	81.030	0.079548	0.0042459	0.61435	1.6277	39.353	41.631	144.97	115.48	146.27	182.75	19.160	9.7806	0.026359
372.27	1.5000	8.0642	0.12401	26.571	26.757	104.59	117.47	179.51	493.40	0.40024	78.132	0.078495	0.0039170	0.66400	1.5060	39.606	41.865	145.18	116.73	150.04	180.43	19.093	9.9617	0.027074
375.60	1.6000	7.9592	0.12564	27.149	27.350	106.15	118.40	182.60	473.67	0.47396	75.413	0.077507	0.0036091	0.71500	1.3986	39.843	42.081	145.37	117.95	154.03	178.06	19.059	10.145	0.027793
378.77	1.7000	7.8554	0.12730	27.709	27.925	107.64	119.30	185.85	454.59	0.55347	72.846	0.076576	0.0033203	0.76748	1.3030	40.064	42.279	145.53	119.15	158.30	175.64	19.053	10.332	0.028520
381.81	1.8000	7.7523	0.12899	28.252	28.484	109.07	120.19	189.28	436.08	0.63963	70.412	0.075696	0.0030486	0.82156	1.2172	40.269	42.460	145.68	120.33	162.89	173.17	19.072	10.522	0.029258
384.72	1.9000	7.6497	0.13072	28.779	29.027	110.46	121.08	192.93	418.06	0.73343	68.093	0.074861	0.0027926	0.87741	1.1397	40.461	42.626	145.81	121.51	167.86	170.66	19.113	10.717	0.030010
387.52	2.0000	7.5472	0.13250	29.292	29.557	111.80	121.95	196.87	400.48	0.83608	65.875	0.074066	0.0025510	0.93517	1.0693	40.638	42.777	145.91	122.68	173.29	168.10	19.174	10.917	0.030780
390.22	2.1000	7.4444	0.13433	29.794	30.076	113.10	122.82	201.14	383.29	0.94899	63.743	0.073307	0.0023228	0.99505	1.0050	40.803	42.913	145.99	123.84	179.25	165.49	19.254	11.124	0.031572
392.82	2.2000	7.3410	0.13622	30.285	30.584	114.36	123.69	205.81	366.45	1.0739	61.688	0.072581	0.0021070	1.0573	0.94584	40.955	43.036	146.06	125.00	185.85	162.85	19.350	11.339	0.032392
395.33	2.3000	7.2365	0.13819	30.766	31.084	115.59	124.56	210.99	349.91	1.2128	59.699	0.071885	0.0019028	1.1221	0.89123	41.094	43.144	146.10	126.15	193.23	160.15	19.462	11.562	0.033244
397.75	2.4000	7.1307	0.14024	31.239	31.575	116.80	125.44	216.79	333.65	1.3684	57.765	0.071217	0.0017095	1.1897	0.84054	41.220	43.237	146.12	127.31	201.54	157.42	19.588	11.794	0.034137
400.11	2.5000	7.0230	0.14239	31.704	32.060	117.98	126.33	223.37	317.63	1.5438	55.879	0.070575	0.0015267	1.2606	0.79327	41.333	43.317	146.11	128.48	211.03	154.64	19.726	12.039	0.035078
402.38	2.6000	6.9129	0.14466	32.164	32.540	119.14	127.22	230.93	301.81	1.7430	54.032	0.069959	0.0013536	1.3351	0.74899	41.434	43.381	146.08	129.65	221.98	151.82	19.876	12.297	0.036078
404.59	2.7000	6.7998	0.14706	32.619	33.016	120.28	128.14	239.77	286.18	1.9711	52.214	0.069368	0.0011901	1.4138	0.70730	41.520	43.430	146.02	130.83	234.80	148.96	20.035	12.571	0.037150
406.74	2.8000	6.6830	0.14963	33.071	33.490	121.41	129.07	250.29	270.69	2.2347	50.416	0.068804	0.0010356	1.4973	0.66787	41.592	43.462	145.93	132.04	250.08	146.05	20.201	12.863	0.038313
408.82	2.9000	6.5614	0.15241	33.521	33.963	122.54	130.04	263.08	255.34	2.5425	48.629	0.068271	0.00088997	1.5864	0.63036	41.648	43.476	145.81	133.27	268.63	143.09	20.371	13.178	0.039591
410.85	3.0000	6.4340	0.15542	33.972	34.438	123.66	131.03	279.05	240.08	2.9061	46.841	0.067775	0.00075299	1.6821	0.59449	41.687	43.470	145.64	134.55	291.72	140.09	20.540	13.521	0.041016
412.82	3.1000	6.2990	0.15875	34.424	34.917	124.78	132.07	299.64	224.89	3.3414	45.038	0.067332	0.00062454	1.7859	0.55993	41.706	43.442	145.43	135.88	321.34	137.03	20.702	13.898	0.042636
414.73	3.2000	6.1543	0.16249	34.883	35.403	125.92	133.18	327.25	209.74	3.8706	43.201	0.066967	0.00050461	1.8998	0.52637	41.702	43.387	145.17	137.28	360.84	133.91	20.847	14.319	0.044526
416.60	3.3000	5.9965	0.16676	35.352	35.903	127.08	134.36	366.36	194.58	4.5262	41.306	0.066734	0.00039330	2.0267	0.49341	41.671	43.299	144.83	138.78	416.30	130.73	20.961	14.798	0.046803
418.41	3.4000	5.8203	0.17181	35.839	36.423	128.29	135.66	426.06	179.36	5.3575	39.314	0.066747	0.00029090	2.1713	0.46056	41.603	43.169	144.41	140.42	500.13	127.47	21.019	15.358	0.049677
420.18	3.5000	5.6166	0.17804	36.355	36.978	129.57	137.16	528.27	164.00	6.4448	37.162	0.067283	0.00019796	2.3419	0.42701	41.486	42.980	143.85	142.28	642.02	124.11	20.973	16.040	0.053570
421.90	3.6000	5.3664	0.18635	36.926	37.597	131.00	138.99	742.06	148.31	7.9343	34.720	0.069144	0.00011557	2.5557	0.39127	41.289	42.697	143.08	144.46	934.59	120.60	20.728	16.933	0.059529
423.57	3.7000	5.0162	0.19936	37.625	38.363	132.76	141.64	1447.8	131.85	10.164	31.633	0.075461	4.6072e-05	2.8635	0.34923	40.926	42.218	141.86	147.24	1880.3	116.81	20.007	18.299	0.071570
